{
  "resourceType": "Bundle",
  "id": "BundleCase2",
  "meta": {
    "tag": [
      {
        "code": "test"
      }
    ]
  },
  "type": "transaction",
  "entry": [
    {
      "fullUrl": "http://example.org/Patient/Patient2",
      "request": {
        "method": "PUT",
        "url": "Patient/Patient2"
      },
      "resource": {
        "resourceType": "Patient",
        "id": "Patient2",
        "name": [
          {
            "family": "patient2"
          }
        ]
      }
    },
    {
      "fullUrl": "http://example.org/Practitioner/Practitioner2",
      "request": {
        "method": "PUT",
        "url": "Practitioner/Practitioner2"
      },
      "resource": {
        "resourceType": "Practitioner",
        "id": "Practitioner2",
        "name": [
          {
            "family": "practitioner2"
          }
        ]
      }
    },
    {
      "fullUrl": "http://example.org/Organization/Organization2",
      "request": {
        "method": "PUT",
        "url": "Organization/Organization2"
      },
      "resource": {
        "resourceType": "Organization",
        "id": "Organization2",
        "name": "organization2"
      }
    },
    {
      "fullUrl": "http://example.org/Encounter/Encounter2",
      "request": {
        "method": "PUT",
        "url": "Encounter/Encounter2"
      },
      "resource": {
        "resourceType": "Encounter",
        "id": "Encounter2",
        "status": "in-progress",
        "class": {
          "code": "AMB",
          "system": "http://terminology.hl7.org/CodeSystem/v3-ActCode",
          "display": "ambulatory"
        },
        "subject": {
          "reference": "Patient/Patient2"
        },
        "participant": [
          {
            "type": [
              {
                "coding": [
                  {
                    "code": "PPRF",
                    "system": "http://terminology.hl7.org/CodeSystem/v3-ParticipationType",
                    "display": "primary performer"
                  }
                ]
              }
            ],
            "individual": {
              "reference": "Practitioner/Practitioner2"
            }
          }
        ],
        "serviceProvider": {
          "reference": "Organization/Organization2"
        }
      }
    },
    {
      "fullUrl": "http://example.org/MedicationRequest/MedicationRequest2",
      "request": {
        "method": "PUT",
        "url": "MedicationRequest/MedicationRequest2"
      },
      "resource": {
        "resourceType": "MedicationRequest",
        "id": "MedicationRequest2",
        "status": "active",
        "intent": "order",
        "subject": {
          "reference": "Patient/Patient2"
        },
        "medicationCodeableConcept": {
          "coding": [
            {
              "code": "105586",
              "system": "http://www.nlm.nih.gov/research/umls/rxnorm",
              "display": "methotrexate 10 MG Oral Tablet"
            }
          ]
        }
      }
    }
  ]
}
