{
  "resourceType": "Bundle",
  "id": "BundleCase1",
  "meta": {
    "tag": [
      {
        "code": "test"
      }
    ]
  },
  "type": "transaction",
  "entry": [
    {
      "fullUrl": "http://example.org/Patient/Patient1",
      "request": {
        "method": "PUT",
        "url": "Patient/Patient1"
      },
      "resource": {
        "resourceType": "Patient",
        "id": "Patient1",
        "name": [
          {
            "family": "patient1"
          }
        ]
      }
    },
    {
      "fullUrl": "http://example.org/Practitioner/Practitioner1",
      "request": {
        "method": "PUT",
        "url": "Practitioner/Practitioner1"
      },
      "resource": {
        "resourceType": "Practitioner",
        "id": "Practitioner1",
        "name": [
          {
            "family": "practitioner1"
          }
        ]
      }
    },
    {
      "fullUrl": "http://example.org/Organization/Organization1",
      "request": {
        "method": "PUT",
        "url": "Organization/Organization1"
      },
      "resource": {
        "resourceType": "Organization",
        "id": "Organization1",
        "name": "organization1"
      }
    },
    {
      "fullUrl": "http://example.org/Encounter/Encounter1",
      "request": {
        "method": "PUT",
        "url": "Encounter/Encounter1"
      },
      "resource": {
        "resourceType": "Encounter",
        "id": "Encounter1",
        "status": "in-progress",
        "class": {
          "code": "AMB",
          "system": "http://terminology.hl7.org/CodeSystem/v3-ActCode",
          "display": "ambulatory"
        },
        "subject": {
          "reference": "Patient/Patient1"
        },
        "participant": [
          {
            "type": [
              {
                "coding": [
                  {
                    "code": "PPRF",
                    "system": "http://terminology.hl7.org/CodeSystem/v3-ParticipationType",
                    "display": "primary performer"
                  }
                ]
              }
            ],
            "individual": {
              "reference": "Practitioner/Practitioner1"
            }
          }
        ],
        "serviceProvider": {
          "reference": "Organization/Organization1"
        }
      }
    }
  ]
}
